File: Latex/Final_thesis_document/Raw_Data/TGA/PHBH_Granulo
#
#
# Curve Name:
#   !PHBH
# Curve Values:
#        Index           t          Ts          Tr       Value
#                      [s]        [°C]        [°C]         [%]
           0           0     32.1246          25         100
          12          12     33.9793          27     100.308
          24          24     35.5863          29      100.36
          36          36     37.1336          31     100.376
          48          48     38.6716          33     100.391
          60          60     40.2391          35     100.408
          72          72     41.8255          37      100.42
          84          84     43.4248          39     100.432
          96          96     45.0443          41     100.446
         108         108     46.6791          43     100.455
         120         120     48.3474          45     100.469
         132         132     50.0217          47     100.477
         144         144     51.7236          49     100.486
         156         156     53.4176          51     100.497
         168         168     55.1212          53     100.505
         180         180     56.8384          55     100.514
         192         192     58.5718          57     100.523
         204         204       60.31          59      100.53
         216         216     62.0493          61     100.537
         228         228     63.8259          63     100.546
         240         240     65.5877          65     100.553
         252         252     67.3609          67      100.56
         264         264      69.137          69     100.567
         276         276     70.9353          71     100.573
         288         288     72.7368          73      100.58
         300         300     74.5319          75     100.586
         312         312     76.3514          77     100.592
         324         324     78.1692          79       100.6
         336         336     80.0078          81     100.602
         348         348      81.826          83     100.609
         360         360     83.6618          85     100.615
         372         372     85.4963          87     100.621
         384         384     87.3096          89     100.624
         396         396     89.1551          91      100.63
         408         408     90.9745          93     100.635
         420         420     92.8004          95     100.639
         432         432     94.6506          97     100.644
         444         444      96.512          99     100.647
         456         456     98.3766         101     100.653
         468         468     100.246         103     100.659
         480         480     102.132         105     100.661
         492         492     103.996         107     100.669
         504         504     105.876         109     100.671
         516         516     107.754         111     100.674
         528         528      109.65         113     100.677
         540         540      111.51         115     100.681
         552         552     113.394         117     100.681
         564         564     115.262         119     100.688
         576         576      117.15         121     100.691
         588         588     119.031         123     100.691
         600         600     120.938         125     100.692
         612         612     122.859         127     100.694
         624         624     124.771         129     100.693
         636         636     126.703         131     100.695
         648         648     128.602         133     100.697
         660         660     130.498         135     100.694
         672         672     132.406         137     100.699
         684         684     134.337         139     100.699
         696         696     136.306         141       100.7
         708         708     138.303         143     100.698
         720         720     140.323         145     100.703
         732         732     142.307         147     100.704
         744         744     144.303         149     100.705
         756         756     146.295         151     100.707
         768         768      148.29         153     100.708
         780         780     150.282         155      100.71
         792         792     152.254         157     100.712
         804         804     154.228         159     100.713
         816         816     156.226         161     100.717
         828         828     158.205         163     100.719
         840         840     160.206         165     100.721
         852         852     162.181         167     100.725
         864         864     164.148         169     100.726
         876         876     166.134         171     100.729
         888         888     168.125         173     100.732
         900         900     170.117         175     100.736
         912         912      172.11         177     100.739
         924         924     174.096         179     100.743
         936         936     176.082         181     100.743
         948         948     178.068         183     100.749
         960         960     180.062         185      100.75
         972         972     182.045         187     100.754
         984         984     184.038         189     100.755
         996         996     186.029         191      100.76
        1008        1008      188.03         193     100.762
        1020        1020     190.041         195     100.766
        1032        1032      192.03         197     100.768
        1044        1044      194.03         199     100.767
        1056        1056     196.028         201     100.771
        1068        1068      198.02         203     100.777
        1080        1080     200.031         205     100.779
        1092        1092     202.034         207     100.778
        1104        1104     204.031         209     100.781
        1116        1116     206.044         211     100.783
        1128        1128     208.061         213     100.785
        1140        1140     210.054         215     100.787
        1152        1152     212.065         217     100.787
        1164        1164     214.062         219     100.791
        1176        1176      216.08         221     100.792
        1188        1188      218.09         223     100.792
        1200        1200     220.113         225     100.794
        1212        1212     222.133         227     100.794
        1224        1224     224.157         229     100.793
        1236        1236     226.174         231     100.792
        1248        1248     228.197         233     100.791
        1260        1260     230.224         235      100.79
        1272        1272     232.245         237     100.785
        1284        1284     234.265         239      100.78
        1296        1296     236.299         241     100.774
        1308        1308     238.307         243     100.764
        1320        1320     240.326         245     100.753
        1332        1332     242.349         247     100.735
        1344        1344     244.351         249     100.714
        1356        1356      246.36         251     100.686
        1368        1368     248.365         253     100.649
        1380        1380     250.374         255     100.601
        1392        1392      252.38         257     100.534
        1404        1404     254.388         259     100.448
        1416        1416     256.369         261     100.327
        1428        1428     258.355         263     100.158
        1440        1440     260.312         265     99.9183
        1452        1452     262.258         267      99.587
        1464        1464     264.159         269     99.0965
        1476        1476     265.994         271     98.3183
        1488        1488     267.709         273     97.0464
        1500        1500     269.353         275     94.9953
        1512        1512     270.884         277      92.126
        1524        1524     272.385         279      88.397
        1536        1536     273.885         281     83.6008
        1548        1548     275.453         283     78.5726
        1560        1560     276.772         285     72.3769
        1572        1572     278.207         287     65.2743
        1584        1584     279.656         289     57.5563
        1596        1596     281.007         291     48.5742
        1608        1608      282.48         293     38.7742
        1620        1620     284.058         295      28.352
        1632        1632     285.748         297      17.594
        1644        1644     288.076         299     7.30109
        1656        1656     292.053         301      2.1059
        1668        1668      295.55         303     1.89546
        1680        1680     298.605         305     1.86098
        1692        1692     301.381         307     1.84611
        1704        1704     303.954         309      1.8337
        1716        1716     306.377         311     1.82621
        1728        1728     308.712         313     1.81705
        1740        1740     310.989         315      1.8088
        1752        1752     313.199         317     1.80148
        1764        1764     315.377         319     1.79526
        1776        1776     317.518         321     1.78797
        1788        1788      319.64         323     1.78111
        1800        1800     321.736         325     1.77424
        1812        1812      323.82         327     1.76842
        1824        1824     325.901         329     1.76298
        1836        1836     327.979         331     1.75856
        1848        1848     330.054         333     1.74881
        1860        1860       332.1         335     1.74728
        1872        1872     334.162         337     1.74136
        1884        1884     336.199         339     1.73507
        1896        1896     338.241         341     1.73099
        1908        1908     340.286         343     1.72454
        1920        1920     342.323         345     1.71851
        1932        1932     344.338         347     1.71385
        1944        1944      346.38         349     1.70848
        1956        1956     348.408         351     1.70414
        1968        1968     350.437         353     1.69893
        1980        1980      352.46         355     1.68746
        1992        1992     354.486         357     1.68436
        2004        2004     356.502         359     1.67954
        2016        2016     358.512         361     1.67599
        2028        2028     360.543         363     1.67796
        2040        2040     362.552         365     1.67266
        2052        2052     364.568         367     1.67025
        2064        2064     366.587         369     1.66625
        2076        2076     368.601         371     1.66403
        2088        2088     370.605         373     1.66184
        2100        2100     372.621         375     1.65687
        2112        2112     374.642         377     1.65833
        2124        2124     376.651         379     1.65458
        2136        2136     378.659         381     1.65164
        2148        2148     380.683         383     1.64986
        2160        2160     382.686         385     1.64808
        2172        2172     384.702         387     1.63996
        2184        2184     386.709         389     1.63562
        2196        2196     388.737         391     1.63049
        2208        2208     390.756         393     1.62745
        2220        2220     392.766         395     1.62359
        2232        2232     394.787         397     1.61941
        2244        2244     396.799         399     1.61755
        2256        2256     398.815         401     1.61372
        2268        2268      400.82         403      1.6087
        2280        2280     402.847         405     1.60689
        2292        2292     404.849         407      1.6018
        2304        2304     406.867         409     1.59915
        2316        2316     408.879         411     1.59609
        2328        2328     410.893         413      1.5931
        2340        2340     412.901         415     1.58729
        2352        2352      414.91         417     1.58615
        2364        2364     416.915         419     1.58284
        2376        2376     418.919         421     1.58118
        2388        2388     420.929         423     1.57918
        2400        2400     422.933         425     1.58221
        2412        2412     424.944         427     1.58194
        2424        2424     426.934         429     1.57956
        2436        2436     428.933         431     1.57927
        2448        2448     430.936         433     1.57621
        2460        2460     432.944         435      1.5759
        2472        2472     434.942         437     1.57583
        2484        2484     436.948         439     1.57583
        2496        2496     438.957         441     1.57583
        2508        2508      440.96         443     1.57583
        2520        2520     442.954         445     1.57583
        2532        2532     444.966         447     1.57868
        2544        2544     446.966         449     1.57784
        2556        2556     448.973         451     1.57238
        2568        2568     450.966         453     1.57387
        2580        2580     452.972         455      1.5748
        2592        2592     454.966         457     1.57544
        2604        2604     456.965         459     1.57982
        2616        2616     458.975         461     1.57596
        2628        2628     460.976         463     1.57583
        2640        2640     462.983         465     1.57715
        2652        2652     464.981         467     1.57592
        2664        2664     466.994         469     1.57659
        2676        2676     468.992         471      1.5761
        2688        2688     470.998         473     1.57681
        2700        2700     473.005         475     1.57583
        2712        2712     475.005         477     1.57647
        2724        2724     477.008         479     1.57702
        2736        2736     479.016         481     1.57583
        2748        2748     481.019         483     1.57583
        2760        2760      483.02         485     1.57395
        2772        2772     485.015         487     1.57391
        2784        2784     487.019         489     1.57413
        2796        2796     489.027         491      1.5728
        2808        2808     491.024         493     1.57315
        2820        2820     493.017         495      1.5749
        2832        2832     495.012         497     1.57515
        2844        2844     497.013         499     1.57353
        2856        2856     499.013         501     1.57535
        2868        2868     501.003         503     1.57573
        2880        2880     502.995         505     1.57583
        2892        2892     504.989         507     1.57583
        2904        2904     506.987         509     1.57591
        2916        2916     508.969         511     1.57812
        2928        2928     510.968         513     1.57791
        2940        2940     512.962         515     1.57901
        2952        2952     514.951         517     1.58041
        2964        2964     516.945         519     1.57992
        2976        2976     518.943         521     1.58161
        2988        2988     520.927         523     1.58271
        3000        3000     522.925         525     1.58311
        3012        3012     524.912         527     1.58591
        3024        3024     526.894         529     1.58729
        3036        3036     528.886         531     1.58958
        3048        3048     530.873         533     1.58943
        3060        3060      532.85         535     1.58959
        3072        3072     534.841         537     1.59263
        3084        3084     536.827         539     1.59335
        3096        3096     538.823         541      1.5957
        3108        3108     540.811         543     1.59628
        3120        3120     542.796         545     1.59746
        3132        3132     544.773         547     1.59991
        3144        3144     546.761         549     1.59991
        3156        3156     548.744         551      1.6027
        3168        3168     550.725         553     1.60335
        3180        3180     552.702         555     1.60422
        3192        3192     554.686         557     1.60665
        3204        3204      556.67         559     1.60794
        3216        3216     558.649         561     1.60994
        3228        3228     560.626         563     1.61023
        3240        3240     562.603         565     1.61291
        3252        3252     564.584         567     1.61367
        3264        3264     566.557         569      1.6163
        3276        3276     568.555         571     1.61711
        3288        3288     570.519         573     1.61788
        3300        3300     572.498         575     1.62003
        3312        3312     574.479         577     1.62132
        3324        3324     576.454         579     1.62324
        3336        3336     578.424         581     1.62399
        3348        3348     580.396         583     1.62591
        3360        3360     582.375         585     1.62743
        3372        3372     584.346         587     1.63023
        3384        3384      586.32         589     1.63088
        3396        3396     588.291         591     1.63419
        3408        3408     590.265         593     1.63432
        3420        3420     592.232         595     1.63623
        3432        3432     594.206         597     1.63775
        3444        3444     596.181         599     1.63884
        3456        3456     598.156         601     1.64082
        3468        3468     600.123         603     1.64129
        3480        3480     602.091         605     1.64453
        3492        3492     604.051         607      1.6454
        3504        3504      606.02         609     1.64806
        3516        3516     607.987         611     1.64928
        3528        3528     609.963         613     1.65037
        3540        3540     611.921         615     1.65152
        3552        3552     613.889         617     1.65219
        3564        3564     615.847         619     1.65496
        3576        3576     617.816         621     1.65524
        3588        3588     619.786         623     1.65662
        3600        3600     621.749         625      1.6584
        3612        3612     623.708         627     1.66118
        3624        3624     625.673         629     1.66165
        3636        3636     627.631         631     1.66184
        3648        3648     629.589         633     1.66488
        3660        3660     631.548         635     1.66538
        3672        3672     633.505         637     1.66681
        3684        3684     635.469         639     1.66805
        3696        3696     637.429         641      1.6697
        3708        3708     639.385         643     1.67216
        3720        3720     641.346         645     1.67216
        3732        3732     643.297         647     1.67216
        3744        3744     645.253         649     1.67484
        3756        3756     647.201         651     1.67718
        3768        3768      649.16         653      1.6775
        3780        3780     651.119         655     1.67904
        3792        3792     653.076         657     1.68111
        3804        3804     655.027         659     1.68193
        3816        3816     656.974         661     1.68249
        3828        3828     658.933         663     1.68562
        3840        3840     660.878         665     1.68593
        3852        3852     662.829         667     1.68593
        3864        3864     664.784         669     1.68915
        3876        3876     666.729         671     1.68968
        3888        3888     668.673         673     1.69243
        3900        3900     670.638         675     1.69207
        3912        3912     672.587         677     1.69315
        3924        3924     674.537         679     1.69548
        3936        3936     676.483         681     1.69544
        3948        3948     678.426         683     1.69767
        3960        3960     680.384         685      1.6974
        3972        3972     682.328         687     1.69948
        3984        3984     684.278         689     1.70064
        3996        3996     686.231         691     1.70275
        4008        4008     688.178         693     1.70313
        4020        4020     690.111         695     1.70313
        4032        4032     692.059         697     1.70428
        4044        4044     694.001         699     1.70654
        4056        4056     695.945         701     1.70657
        4068        4068     697.886         703     1.70772
        4080        4080     699.825         705        1.71
        4092        4092      701.76         707     1.71001
        4104        4104     703.705         709     1.71078
        4116        4116     705.656         711     1.71299
        4128        4128     707.593         713     1.71342
        4140        4140     709.529         715     1.71345
        4152        4152     711.471         717     1.71677
        4164        4164     713.418         719     1.71689
        4176        4176     715.357         721     1.71919
        4188        4188     717.296         723     1.72024
        4200        4200     719.229         725     1.72033
        4212        4212     721.159         727     1.72224
        4224        4224     723.095         729     1.72367
        4236        4236     725.027         731     1.72425
        4248        4248     726.962         733     1.72721
        4260        4260     728.895         735     1.72721
        4272        4272     730.832         737     1.73001
        4284        4284     732.771         739     1.72989
        4296        4296     734.713         741     1.73158
        4308        4308      736.65         743     1.73114
        4320        4320     738.582         745     1.73218
        4332        4332     740.519         747     1.73399
        4344        4344     742.456         749      1.7341
        4356        4356      744.39         751      1.7341
        4368        4368     746.323         753     1.73673
        4380        4380     748.254         755     1.73696
        4392        4392     750.188         757      1.7383
        4404        4404     752.111         759     1.73913
        4416        4416      754.04         761     1.73968
        4428        4428     755.967         763     1.74098
        4440        4440       757.9         765     1.74098
        4452        4452      759.83         767     1.74377
        4464        4464     761.765         769     1.74365
        4476        4476      763.69         771     1.74575
        4488        4488     765.618         773     1.74442
        4500        4500     767.544         775     1.74671
        4512        4512     769.481         777     1.74767
        4524        4524     771.407         779     1.75056
        4536        4536     773.344         781     1.75092
        4548        4548     775.275         783      1.7513
        4560        4560     777.193         785     1.75146
        4572        4572     779.122         787      1.7513
        4584        4584     781.049         789     1.75443
        4596        4596     782.983         791     1.75506
        4608        4608     784.905         793      1.7555
        4620        4620     786.825         795     1.75627
        4632        4632     788.755         797     1.75817
        4644        4644     790.689         799     1.75818
        4656        4656     792.613         801     1.75944
        4668        4668     794.525         803     1.75962
        4680        4680     796.456         805     1.76162
        4692        4692     798.383         807      1.7631
        4704        4704     800.299         809     1.76483
        4716        4716     802.214         811     1.76506
        4728        4728     804.146         813     1.76506
        4740        4740     806.071         815     1.76654
        4752        4752     807.987         817     1.76888
        4764        4764     809.908         819      1.7686
        4776        4776     811.823         821     1.76979
        4788        4788     813.741         823     1.77156
        4800        4800     815.673         825     1.77194
        4812        4812     817.587         827     1.77194
        4824        4824     819.507         829     1.77347
        4836        4836     821.434         831     1.77527
        4848        4848     823.357         833     1.77538
        4860        4860     825.278         835     1.77538
        4872        4872     827.192         837     1.77661
        4884        4884     829.113         839     1.77762
        4896        4896     831.031         841     1.77882
        4908        4908     832.966         843     1.77864
        4920        4920     834.879         845     1.77882
        4932        4932     836.798         847     1.77882
        4944        4944     838.717         849     1.77882
        4956        4956     840.627         851     1.78048
        4968        4968     842.535         853     1.78227
        4980        4980     844.463         855     1.78227
        4992        4992     846.379         857     1.78227
        5004        5004     848.297         859     1.78074
        5016        5016     850.208         861     1.78367
        5028        5028      852.13         863     1.78466
        5040        5040     854.027         865     1.78571
        5052        5052     855.948         867     1.78571
        5064        5064     857.861         869     1.78665
        5076        5076     859.774         871     1.78723
        5088        5088     861.692         873     1.78895
        5100        5100     863.595         875     1.78915
        5112        5112     865.512         877     1.78991
        5124        5124     867.414         879     1.78925
        5136        5136     869.339         881     1.79248
        5148        5148     871.248         883     1.79259
        5160        5160     873.154         885     1.79448
        5172        5172     875.068         887     1.79555
        5184        5184     876.978         889     1.79603
        5196        5196     878.879         891     1.79603
        5208        5208     880.787         893      1.7965
        5220        5220     882.692         895     1.79603
        5232        5232     884.598         897     1.79947
        5244        5244     886.504         899     1.80061
# Results:
# Texts:
#   !PHBH
#   PHBH. 29.0641 mg
#
# Sample:
#   PHBH. 29.0641 mg
# Sample Remarks:
#
# Method:
#   25-900_10°C/min_air50ml/min_luca