File: Latex/Final_thesis_document/Raw_Data/TGA/PHBH 10layer.txt
Curve Name:
  !PHBH_10 layer
Curve Values:
       Index           t          Ts          Tr       Value
                     [s]        [�C]        [�C]         [%]
           0           0     32.8067          25         100
          12          12     34.6915          27     100.784
          24          24     36.2909          29     100.915
          36          36     37.8297          31     100.956
          48          48     39.3827          33     100.992
          60          60     40.9568          35     101.028
          72          72     42.5425          37     101.059
          84          84     44.1625          39     101.087
          96          96     45.7894          41     101.109
         108         108     47.4316          43     101.135
         120         120     49.0921          45     101.155
         132         132     50.7741          47     101.175
         144         144     52.4677          49     101.197
         156         156     54.1508          51     101.211
         168         168     55.8754          53     101.231
         180         180      57.582          55     101.249
         192         192     59.3183          57     101.266
         204         204     61.0568          59     101.281
         216         216     62.7888          61     101.298
         228         228     64.5569          63     101.309
         240         240     66.3333          65     101.328
         252         252     68.0923          67     101.345
         264         264     69.8468          69     101.363
         276         276     71.6437          71     101.377
         288         288     73.4303          73     101.393
         300         300     75.2177          75     101.409
         312         312     77.0217          77     101.428
         324         324     78.8079          79     101.442
         336         336     80.6339          81     101.461
         348         348     82.4415          83     101.474
         360         360     84.2587          85      101.49
         372         372       86.08          87     101.507
         384         384      87.901          89     101.523
         396         396     89.7383          91     101.536
         408         408     91.5718          93      101.55
         420         420     93.4057          95     101.566
         432         432     95.2428          97     101.582
         444         444     97.0966          99     101.594
         456         456     98.9451         101      101.61
         468         468     100.807         103     101.622
         480         480     102.653         105     101.638
         492         492     104.516         107     101.649
         504         504     106.384         109     101.663
         516         516     108.243         111     101.677
         528         528     110.106         113     101.689
         540         540     111.997         115       101.7
         552         552      113.87         117     101.711
         564         564     115.746         119     101.726
         576         576     117.637         121     101.737
         588         588     119.521         123      101.75
         600         600     121.416         125     101.763
         612         612     123.303         127     101.774
         624         624     125.185         129     101.784
         636         636     127.084         131     101.795
         648         648     128.979         133     101.808
         660         660     130.891         135     101.818
         672         672      132.81         137     101.831
         684         684     134.741         139     101.838
         696         696     136.674         141      101.85
         708         708     138.611         143      101.86
         720         720     140.564         145      101.87
         732         732     142.503         147      101.88
         744         744     144.433         149     101.886
         756         756     146.386         151     101.898
         768         768      148.33         153      101.91
         780         780     150.265         155     101.918
         792         792     152.215         157     101.927
         804         804     154.172         159     101.937
         816         816     156.121         161     101.947
         828         828     158.052         163      101.96
         840         840     160.006         165     101.967
         852         852     161.954         167     101.977
         864         864     163.911         169     101.985
         876         876     165.854         171     101.993
         888         888     167.817         173     102.003
         900         900     169.775         175      102.01
         912         912     171.734         177     102.022
         924         924     173.697         179     102.026
         936         936     175.666         181     102.038
         948         948     177.624         183     102.041
         960         960     179.599         185     102.053
         972         972     181.577         187      102.06
         984         984     183.547         189     102.068
         996         996     185.514         191     102.075
        1008        1008     187.482         193     102.085
        1020        1020     189.462         195     102.096
        1032        1032     191.449         197     102.098
        1044        1044     193.421         199     102.104
        1056        1056       195.4         201     102.107
        1068        1068     197.382         203     102.116
        1080        1080     199.352         205     102.122
        1092        1092     201.331         207     102.126
        1104        1104     203.319         209     102.133
        1116        1116     205.311         211     102.135
        1128        1128     207.297         213     102.142
        1140        1140      209.28         215     102.145
        1152        1152     211.275         217     102.152
        1164        1164     213.265         219     102.152
        1176        1176     215.261         221     102.155
        1188        1188     217.243         223     102.155
        1200        1200     219.248         225     102.159
        1212        1212     221.251         227     102.161
        1224        1224     223.249         229     102.163
        1236        1236     225.249         231      102.16
        1248        1248     227.246         233     102.155
        1260        1260      229.24         235     102.158
        1272        1272     231.252         237     102.155
        1284        1284     233.261         239     102.146
        1296        1296     235.287         241     102.142
        1308        1308     237.296         243     102.127
        1320        1320     239.314         245      102.12
        1332        1332     241.319         247     102.103
        1344        1344     243.336         249     102.081
        1356        1356     245.356         251     102.052
        1368        1368     247.363         253     102.016
        1380        1380     249.386         255     101.964
        1392        1392     251.404         257     101.903
        1404        1404     253.441         259     101.819
        1416        1416     255.483         261     101.692
        1428        1428      257.51         263      101.53
        1440        1440     259.535         265     101.318
        1452        1452     261.571         267     101.039
        1464        1464       263.6         269     100.684
        1476        1476     265.647         271     100.212
        1488        1488     267.681         273     99.6029
        1500        1500     269.724         275     98.7838
        1512        1512     271.762         277     97.6856
        1524        1524     273.803         279     96.1978
        1536        1536     275.824         281      94.096
        1548        1548     277.849         283     91.2218
        1560        1560      279.85         285     87.4678
        1572        1572     281.849         287     82.9041
        1584        1584     283.827         289     77.2176
        1596        1596     285.805         291     70.5699
        1608        1608     287.692         293     62.5337
        1620        1620     289.501         295     53.4591
        1632        1632     291.254         297     43.6984
        1644        1644     293.039         299     33.6386
        1656        1656     295.137         301     23.8539
        1668        1668     297.375         303     15.3354
        1680        1680     299.546         305     9.25163
        1692        1692     301.691         307     6.43053
        1704        1704     303.774         309     5.70973
        1716        1716      305.84         311     5.53452
        1728        1728      307.88         313     5.47441
        1740        1740     309.916         315     5.44155
        1752        1752     311.939         317     5.41813
        1764        1764     313.955         319     5.39875
        1776        1776     315.985         321     5.38483
        1788        1788     317.997         323     5.37439
        1800        1800     320.025         325      5.3608
        1812        1812      322.03         327     5.35025
        1824        1824     324.038         329     5.33483
        1836        1836     326.053         331     5.31763
        1848        1848     328.071         333     5.30653
        1860        1860     330.073         335     5.29461
        1872        1872     332.082         337     5.27996
        1884        1884     334.098         339     5.26844
        1896        1896     336.105         341     5.25292
        1908        1908     338.113         343     5.23868
        1920        1920     340.128         345     5.22226
        1932        1932     342.128         347     5.20554
        1944        1944     344.139         349     5.18736
        1956        1956     346.157         351     5.17045
        1968        1968     348.163         353     5.15334
        1980        1980     350.172         355     5.13499
        1992        1992     352.198         357     5.11536
        2004        2004     354.203         359     5.09646
        2016        2016     356.215         361      5.0741
        2028        2028     358.228         363     5.05394
        2040        2040      360.24         365     5.03308
        2052        2052     362.255         367     5.01044
        2064        2064     364.257         369     4.99124
        2076        2076     366.269         371     4.97105
        2088        2088     368.291         373     4.95066
        2100        2100     370.287         375     4.93064
        2112        2112     372.297         377     4.91695
        2124        2124     374.303         379     4.89708
        2136        2136     376.316         381     4.88598
        2148        2148     378.315         383     4.87078
        2160        2160     380.325         385     4.86156
        2172        2172      382.33         387     4.84496
        2184        2184     384.341         389     4.83485
        2196        2196     386.337         391     4.82777
        2208        2208     388.347         393      4.8139
        2220        2220     390.355         395     4.80528
        2232        2232     392.352         397     4.80368
        2244        2244     394.355         399     4.78565
        2256        2256     396.365         401     4.78179
        2268        2268     398.364         403     4.77863
        2280        2280     400.371         405     4.76643
        2292        2292     402.372         407     4.76036
        2304        2304     404.368         409     4.75427
        2316        2316     406.379         411     4.74697
        2328        2328     408.399         413     4.73767
        2340        2340     410.402         415     4.73077
        2352        2352     412.417         417     4.71873
        2364        2364     414.419         419     4.70924
        2376        2376     416.435         421     4.70079
        2388        2388     418.434         423     4.69013
        2400        2400     420.449         425     4.67511
        2412        2412     422.454         427     4.66628
        2424        2424     424.445         429     4.65379
        2436        2436     426.444         431      4.6456
        2448        2448     428.461         433     4.63053
        2460        2460     430.457         435     4.62144
        2472        2472     432.469         437     4.60729
        2484        2484     434.466         439     4.59981
        2496        2496     436.464         441     4.58581
        2508        2508     438.468         443     4.57225
        2520        2520     440.459         445     4.55522
        2532        2532     442.458         447     4.54549
        2544        2544     444.455         449     4.53261
        2556        2556     446.443         451     4.52105
        2568        2568     448.446         453     4.50763
        2580        2580     450.437         455     4.49154
        2592        2592      452.42         457     4.47916
        2604        2604     454.421         459     4.46848
        2616        2616      456.41         461     4.45406
        2628        2628     458.404         463     4.44346
        2640        2640     460.395         465     4.43402
        2652        2652     462.386         467     4.42411
        2664        2664     464.364         469     4.41486
        2676        2676     466.356         471     4.40543
        2688        2688      468.34         473     4.39594
        2700        2700     470.315         475     4.38837
        2712        2712     472.294         477      4.3862
        2724        2724     474.275         479     4.37806
        2736        2736     476.249         481     4.37865
        2748        2748      478.23         483     4.37436
        2760        2760     480.212         485     4.37615
        2772        2772     482.191         487     4.37551
        2784        2784     484.174         489      4.3678
        2796        2796     486.157         491     4.37647
        2808        2808     488.134         493     4.37671
        2820        2820      490.12         495     4.37671
        2832        2832     492.097         497     4.37671
        2844        2844      494.07         499     4.37776
        2856        2856      496.04         501     4.37823
        2868        2868     498.016         503     4.38541
        2880        2880     499.995         505      4.3862
        2892        2892      501.97         507      4.3862
        2904        2904     503.952         509      4.3862
        2916        2916     505.927         511      4.3886
        2928        2928     507.907         513     4.39429
        2940        2940     509.882         515     4.39533
        2952        2952     511.861         517      4.3957
        2964        2964     513.836         519     4.39675
        2976        2976     515.804         521     4.39711
        2988        2988     517.786         523     4.40242
        3000        3000     519.745         525     4.40402
        3012        3012      521.71         527     4.40519
        3024        3024     523.698         529     4.40519
        3036        3036     525.671         531     4.40836
        3048        3048     527.646         533     4.41224
        3060        3060     529.618         535     4.41467
        3072        3072     531.588         537     4.41469
        3084        3084     533.562         539     4.41469
        3096        3096     535.529         541     4.41469
        3108        3108     537.494         543     4.42359
        3120        3120     539.458         545     4.42179
        3132        3132     541.427         547     4.42417
        3144        3144     543.394         549     4.42418
        3156        3156     545.359         551     4.42545
        3168        3168     547.325         553     4.42419
        3180        3180     549.298         555     4.42535
        3192        3192     551.255         557     4.43288
        3204        3204     553.225         559     4.43248
        3216        3216      555.18         561     4.43367
        3228        3228     557.148         563     4.43367
        3240        3240     559.103         565     4.43367
        3252        3252     561.073         567     4.43485
        3264        3264      563.03         569     4.44087
        3276        3276     564.988         571     4.44315
        3288        3288     566.956         573     4.44317
        3300        3300      568.91         575     4.44317
        3312        3312     570.867         577     4.45028
        3324        3324     572.825         579     4.44539
        3336        3336     574.778         581     4.45256
        3348        3348     576.737         583     4.45266
        3360        3360     578.694         585     4.45266
        3372        3372     580.646         587     4.45266
        3384        3384     582.599         589     4.45266
        3396        3396     584.542         591      4.4577
        3408        3408     586.506         593     4.45954
        3420        3420     588.465         595     4.46145
        3432        3432     590.413         597     4.46215
        3444        3444     592.365         599     4.46242
        3456        3456     594.319         601     4.46671
        3468        3468     596.264         603     4.46462
        3480        3480     598.216         605     4.46621
        3492        3492     600.165         607     4.47161
        3504        3504     602.115         609     4.47165
        3516        3516     604.065         611     4.47544
        3528        3528     606.017         613     4.47194
        3540        3540     607.959         615     4.47188
        3552        3552     609.908         617     4.47487
        3564        3564     611.858         619     4.48078
        3576        3576     613.808         621     4.48091
        3588        3588     615.754         623     4.48114
        3600        3600     617.702         625      4.4831
        3612        3612     619.645         627     4.48126
        3624        3624     621.586         629     4.48141
        3636        3636      623.53         631     4.48655
        3648        3648      625.48         633     4.48513
        3660        3660     627.423         635     4.48966
        3672        3672     629.355         637     4.49063
        3684        3684     631.299         639     4.49064
        3696        3696      633.24         641     4.49064
        3708        3708     635.184         643     4.49816
        3720        3720     637.122         645     4.49978
        3732        3732      639.07         647     4.50013
        3744        3744     641.005         649     4.50013
        3756        3756     642.946         651     4.50013
        3768        3768     644.888         653     4.50227
        3780        3780     646.813         655     4.50025
        3792        3792     648.751         657     4.49896
        3804        3804     650.679         659     4.50013
        3816        3816     652.617         661     4.50745
        3828        3828     654.548         663     4.50962
        3840        3840     656.485         665     4.50962
        3852        3852     658.425         667     4.50962
        3864        3864     660.356         669     4.50962
        3876        3876     662.288         671     4.50962
        3888        3888     664.225         673     4.50962
        3900        3900     666.148         675     4.51279
        3912        3912     668.076         677     4.51325
        3924        3924     670.012         679     4.51908
        3936        3936     671.943         681     4.51783
        3948        3948     673.873         683     4.51856
        3960        3960     675.809         685     4.51912
        3972        3972      677.73         687     4.51912
        3984        3984     679.657         689     4.51912
        3996        3996     681.584         691     4.51912
        4008        4008      683.51         693     4.51912
        4020        4020     685.442         695     4.51912
        4032        4032     687.367         697     4.51912
        4044        4044     689.294         699     4.52568
        4056        4056      691.21         701     4.52425
        4068        4068     693.131         703     4.52261
        4080        4080     695.056         705      4.5251
        4092        4092     696.971         707      4.5286
        4104        4104     698.894         709      4.5249
        4116        4116     700.821         711     4.52861
        4128        4128     702.741         713     4.52861
        4140        4140     704.656         715     4.52861
        4152        4152      706.58         717     4.52861
        4164        4164     708.496         719     4.53044
        4176        4176     710.417         721     4.52862
        4188        4188     712.332         723     4.52861
        4200        4200     714.256         725     4.52894
        4212        4212     716.166         727     4.52888
        4224        4224     718.083         729     4.52908
        4236        4236     719.996         731     4.52922
        4248        4248     721.915         733     4.53532
        4260        4260     723.831         735     4.53705
        4272        4272     725.741         737     4.53746
        4284        4284      727.66         739     4.53811
        4296        4296     729.569         741     4.53271
        4308        4308     731.486         743     4.53464
        4320        4320     733.396         745     4.53803
        4332        4332     735.305         747     4.53811
        4344        4344     737.215         749     4.53811
        4356        4356     739.131         751     4.53811
        4368        4368     741.033         753     4.53811
        4380        4380     742.955         755     4.53811
        4392        4392     744.864         757     4.53999
        4404        4404     746.782         759     4.54033
        4416        4416     748.703         761     4.53815
        4428        4428     750.596         763     4.53811
        4440        4440     752.508         765     4.54068
        4452        4452     754.427         767     4.53939
        4464        4464     756.331         769     4.54067
        4476        4476     758.237         771     4.54127
        4488        4488     760.143         773     4.53742
        4500        4500     762.045         775       4.539
        4512        4512     763.955         777     4.54748
        4524        4524     765.855         779     4.54141
        4536        4536     767.762         781     4.53944
        4548        4548     769.662         783     4.54584
        4560        4560     771.568         785     4.54012
        4572        4572     773.465         787     4.54243
        4584        4584     775.372         789     4.54279
        4596        4596     777.274         791     4.54103
        4608        4608     779.168         793     4.53823
        4620        4620     781.072         795     4.54279
        4632        4632     782.974         797      4.5407
        4644        4644     784.869         799     4.54342
        4656        4656     786.771         801     4.53834
        4668        4668     788.665         803     4.54736
        4680        4680     790.564         805     4.54655
        4692        4692     792.469         807      4.5435
        4704        4704     794.362         809     4.54295
        4716        4716     796.263         811     4.53814
        4728        4728     798.145         813     4.53928
        4740        4740     800.045         815     4.54247
        4752        4752     801.956         817     4.54184
        4764        4764     803.847         819     4.53975
        4776        4776     805.735         821     4.53811
        4788        4788     807.633         823      4.5389
        4800        4800     809.525         825     4.54068
        4812        4812     811.416         827     4.53811
        4824        4824     813.305         829     4.53811
        4836        4836     815.205         831     4.53811
        4848        4848     817.096         833     4.53871
        4860        4860     818.985         835     4.53942
        4872        4872     820.872         837     4.54362
        4884        4884     822.761         839     4.53936
        4896        4896     824.664         841     4.54198
        4908        4908     826.552         843     4.54631
        4920        4920     828.439         845     4.53825
        4932        4932     830.326         847     4.53811
        4944        4944     832.217         849     4.53811
        4956        4956     834.107         851     4.53811
        4968        4968     835.995         853     4.53934
        4980        4980     837.883         855     4.53811
        4992        4992     839.767         857     4.53811
        5004        5004      841.65         859     4.53811
        5016        5016     843.537         861     4.53811
        5028        5028     845.431         863     4.53811
        5040        5040     847.317         865     4.53811
        5052        5052     849.211         867     4.53811
        5064        5064     851.094         869     4.53811
        5076        5076     852.978         871     4.53811
        5088        5088     854.853         873     4.53811
        5100        5100     856.732         875     4.53529
        5112        5112     858.623         877     4.54226
        5124        5124     860.499         879     4.53846
        5136        5136     862.372         881     4.53811
        5148        5148     864.244         883     4.53811
        5160        5160     866.117         885     4.53143
        5172        5172         868         887     4.53792
        5184        5184     869.877         889     4.53811
        5196        5196     871.753         891     4.53705
        5208        5208     873.626         893     4.53336
        5220        5220     875.507         895     4.53064
        5232        5232     877.384         897     4.53804
        5244        5244     879.257         899     4.52868
Results:
Texts:
  !PHBH_10 layer
  PHBH_10 layer. 10.5330 mg

Sample:
  PHBH_10 layer. 10.5330 mg
Sample Remarks:

Method:
  25-900_10�C/min_air50ml/min_luca