File: Latex/Final_thesis_document/Raw_Data/TGA/PHBH p 07.txt
Curve Name:
  !PHBHp0607
Curve Values:
       Index           t          Ts          Tr       Value
                     [s]        [°C]        [°C]         [%]
           0           0     33,0274          25         100
          12          12     34,9918          27     100,468
          24          24     36,6671          29     100,529
          36          36     38,2559          31     100,543
          48          48     39,8391          33     100,558
          60          60     41,4425          35     100,575
          72          72     43,0669          37      100,59
          84          84     44,7218          39     100,604
          96          96     46,3748          41     100,619
         108         108     48,0546          43     100,632
         120         120     49,7468          45     100,646
         132         132       51,44          47     100,659
         144         144     53,1613          49     100,675
         156         156     54,8914          51     100,687
         168         168     56,6191          53     100,701
         180         180     58,3653          55     100,715
         192         192     60,1227          57      100,73
         204         204     61,8951          59     100,743
         216         216      63,663          61     100,754
         228         228     65,4487          63     100,766
         240         240     67,2262          65      100,78
         252         252      69,011          67     100,792
         264         264     70,8165          69     100,805
         276         276     72,6085          71     100,818
         288         288     74,3879          73     100,829
         300         300     76,2017          75     100,841
         312         312     78,0307          77     100,855
         324         324     79,8287          79     100,866
         336         336      81,659          81     100,879
         348         348     83,4895          83      100,89
         360         360     85,3351          85     100,901
         372         372      87,181          87     100,911
         384         384     89,0173          89     100,922
         396         396     90,8697          91     100,934
         408         408      92,736          93     100,945
         420         420     94,5859          95     100,956
         432         432     96,4598          97     100,968
         444         444     98,3275          99     100,976
         456         456     100,183         101     100,986
         468         468     102,066         103     100,994
         480         480      103,92         105     101,005
         492         492     105,798         107     101,014
         504         504     107,687         109     101,024
         516         516     109,563         111     101,035
         528         528     111,447         113     101,045
         540         540     113,333         115     101,051
         552         552     115,229         117     101,063
         564         564     117,121         119     101,072
         576         576     119,015         121      101,08
         588         588     120,899         123     101,089
         600         600     122,769         125     101,098
         612         612     124,653         127     101,107
         624         624     126,575         129     101,113
         636         636       128,5         131     101,121
         648         648     130,456         133      101,13
         660         660     132,415         135     101,137
         672         672     134,367         137     101,145
         684         684     136,324         139     101,155
         696         696     138,306         141      101,16
         708         708     140,264         143     101,168
         720         720     142,224         145     101,175
         732         732     144,181         147     101,183
         744         744     146,135         149      101,19
         756         756     148,102         151     101,195
         768         768     150,038         153     101,201
         780         780     152,007         155      101,21
         792         792     153,969         157     101,218
         804         804      155,93         159     101,224
         816         816     157,893         161     101,228
         828         828      159,87         163     101,236
         840         840     161,829         165     101,243
         852         852     163,803         167     101,249
         864         864     165,783         169     101,255
         876         876     167,753         171      101,26
         888         888     169,725         173     101,266
         900         900     171,701         175     101,272
         912         912     173,682         177     101,278
         924         924     175,659         179     101,283
         936         936     177,636         181     101,287
         948         948     179,613         183     101,291
         960         960     181,595         185     101,297
         972         972     183,581         187     101,298
         984         984     185,558         189     101,298
         996         996     187,539         191     101,298
        1008        1008     189,532         193     101,295
        1020        1020     191,508         195     101,288
        1032        1032     193,501         197     101,273
        1044        1044     195,488         199     101,252
        1056        1056     197,476         201     101,217
        1068        1068     199,466         203     101,165
        1080        1080     201,455         205     101,086
        1092        1092      203,44         207     100,974
        1104        1104     205,428         209     100,818
        1116        1116     207,408         211     100,605
        1128        1128      209,37         213     100,328
        1140        1140     211,342         215     99,9621
        1152        1152      213,28         217     99,4889
        1164        1164     215,228         219     98,8797
        1176        1176     217,182         221     98,1289
        1188        1188     219,101         223     97,2149
        1200        1200     221,028         225     96,0957
        1212        1212     222,933         227     94,6993
        1224        1224     224,828         229     92,9835
        1236        1236     226,695         231     90,9298
        1248        1248     228,531         233     88,4265
        1260        1260     230,418         235      85,652
        1272        1272     232,303         237     82,7734
        1284        1284     234,189         239     79,5675
        1296        1296     236,086         241     76,1205
        1308        1308     237,984         243     72,3542
        1320        1320     239,908         245     68,5551
        1332        1332     241,838         247     64,6392
        1344        1344     243,778         249     60,5395
        1356        1356     245,729         251     56,3736
        1368        1368     247,699         253     52,1481
        1380        1380     249,674         255     47,8508
        1392        1392     251,656         257     43,4109
        1404        1404     253,654         259     38,9891
        1416        1416     255,657         261     34,6026
        1428        1428      257,67         263     30,0577
        1440        1440     259,695         265     25,4879
        1452        1452     261,766         267     21,0222
        1464        1464     263,934         269     17,0424
        1476        1476      266,14         271     13,7178
        1488        1488      268,41         273     11,0013
        1500        1500     270,746         275     9,11734
        1512        1512     273,099         277     8,11295
        1524        1524     275,393         279     7,64536
        1536        1536     277,625         281     7,46731
        1548        1548     279,804         283     7,39108
        1560        1560      281,94         285     7,33712
        1572        1572     284,045         287     7,29547
        1584        1584     286,126         289     7,25457
        1596        1596     288,201         291     7,21867
        1608        1608     290,257         293     7,18435
        1620        1620      292,31         295     7,14886
        1632        1632     294,356         297     7,11537
        1644        1644     296,403         299     7,08075
        1656        1656     298,432         301     7,04757
        1668        1668     300,455         303     7,01598
        1680        1680      302,48         305     6,98485
        1692        1692     304,503         307     6,95467
        1704        1704     306,535         309     6,92239
        1716        1716     308,547         311     6,89014
        1728        1728     310,581         313     6,85736
        1740        1740     312,602         315     6,82366
        1752        1752     314,623         317     6,78858
        1764        1764     316,636         319     6,75555
        1776        1776     318,663         321      6,7206
        1788        1788     320,678         323     6,68554
        1800        1800     322,694         325     6,64876
        1812        1812     324,721         327     6,61229
        1824        1824     326,742         329     6,57841
        1836        1836     328,758         331     6,54107
        1848        1848     330,764         333     6,50525
        1860        1860      332,79         335     6,46718
        1872        1872     334,796         337     6,42924
        1884        1884      336,81         339     6,39427
        1896        1896      338,83         341     6,35351
        1908        1908     340,848         343     6,31563
        1920        1920     342,859         345     6,27567
        1932        1932      344,88         347     6,23294
        1944        1944     346,906         349     6,18982
        1956        1956     348,915         351     6,14295
        1968        1968     350,928         353     6,09597
        1980        1980     352,948         355     6,04769
        1992        1992     354,965         357     5,99368
        2004        2004      356,97         359     5,93924
        2016        2016     359,008         361     5,87941
        2028        2028     361,008         363      5,8204
        2040        2040     363,034         365     5,75788
        2052        2052     365,047         367     5,68977
        2064        2064     367,072         369     5,61936
        2076        2076     369,083         371     5,54766
        2088        2088     371,098         373     5,47085
        2100        2100     373,108         375     5,39334
        2112        2112     375,135         377     5,31583
        2124        2124     377,153         379     5,23414
        2136        2136     379,168         381     5,15222
        2148        2148     381,182         383     5,07285
        2160        2160     383,192         385     4,99315
        2172        2172     385,204         387     4,92149
        2184        2184     387,212         389     4,85261
        2196        2196     389,227         391      4,7892
        2208        2208     391,228         393     4,73443
        2220        2220     393,237         395      4,6835
        2232        2232     395,238         397     4,64212
        2244        2244     397,239         399     4,60266
        2256        2256      399,26         401     4,56893
        2268        2268     401,263         403     4,53826
        2280        2280     403,271         405     4,50818
        2292        2292     405,279         407     4,47984
        2304        2304     407,286         409     4,45152
        2316        2316     409,304         411     4,42481
        2328        2328      411,32         413     4,39595
        2340        2340     413,347         415     4,36601
        2352        2352     415,381         417      4,3339
        2364        2364     417,407         419     4,29692
        2376        2376     419,451         421     4,26075
        2388        2388     421,488         423     4,21633
        2400        2400     423,524         425     4,17483
        2412        2412     425,557         427     4,13195
        2424        2424      427,57         429     4,08429
        2436        2436     429,587         431     4,04066
        2448        2448     431,577         433     3,99899
        2460        2460     433,565         435     3,95856
        2472        2472     435,539         437     3,91922
        2484        2484      437,51         439     3,88674
        2496        2496     439,478         441      3,8551
        2508        2508     441,458         443      3,8284
        2520        2520     443,423         445     3,80324
        2532        2532     445,384         447     3,77885
        2544        2544     447,358         449     3,75516
        2556        2556     449,322         451     3,73456
        2568        2568     451,309         453     3,71707
        2580        2580     453,274         455     3,69932
        2592        2592      455,25         457     3,68366
        2604        2604     457,232         459     3,66929
        2616        2616     459,213         461     3,65448
        2628        2628     461,213         463     3,63919
        2640        2640      463,21         465     3,62108
        2652        2652     465,203         467     3,60414
        2664        2664     467,186         469     3,58943
        2676        2676     469,195         471     3,57409
        2688        2688     471,182         473     3,55664
        2700        2700     473,177         475     3,54102
        2712        2712     475,172         477     3,52418
        2724        2724     477,175         479     3,50793
        2736        2736     479,167         481     3,49189
        2748        2748     481,156         483     3,47352
        2760        2760     483,144         485     3,45912
        2772        2772     485,138         487     3,44321
        2784        2784     487,121         489     3,42783
        2796        2796     489,116         491     3,41328
        2808        2808       491,1         493      3,3998
        2820        2820     493,078         495     3,38604
        2832        2832     495,059         497     3,37332
        2844        2844     497,032         499     3,36224
        2856        2856     499,017         501     3,35126
        2868        2868     500,984         503     3,34038
        2880        2880     502,962         505     3,32994
        2892        2892     504,937         507     3,32045
        2904        2904      506,91         509     3,31342
        2916        2916     508,885         511     3,30401
        2928        2928     510,852         513     3,29528
        2940        2940     512,832         515     3,29396
        2952        2952     514,798         517     3,28553
        2964        2964     516,774         519     3,28124
        2976        2976     518,744         521       3,275
        2988        2988      520,73         523      3,2685
        3000        3000     522,708         525     3,26685
        3012        3012     524,677         527     3,26113
        3024        3024     526,652         529     3,25532
        3036        3036     528,634         531     3,24917
        3048        3048     530,611         533     3,24344
        3060        3060     532,583         535     3,24229
        3072        3072     534,551         537     3,23409
        3084        3084     536,523         539     3,22988
        3096        3096     538,497         541     3,22621
        3108        3108     540,472         543     3,21868
        3120        3120     542,438         545     3,21664
        3132        3132     544,416         547     3,21147
        3144        3144     546,396         549     3,20789
        3156        3156     548,369         551     3,20376
        3168        3168     550,336         553     3,19754
        3180        3180      552,31         555     3,19281
        3192        3192     554,289         557     3,18769
        3204        3204     556,263         559     3,18271
        3216        3216     558,245         561     3,17603
        3228        3228     560,214         563     3,16741
        3240        3240     562,233         565     3,16261
        3252        3252     564,241         567     3,14988
        3264        3264     566,218         569     3,13354
        3276        3276     568,168         571     3,12397
        3288        3288     570,119         573     3,11523
        3300        3300     572,185         575     3,10421
        3312        3312     574,161         577     3,08209
        3324        3324     576,094         579     3,07171
        3336        3336     578,028         581     3,06288
        3348        3348     579,972         583     3,06143
        3360        3360     581,953         585     3,05521
        3372        3372     583,947         587     3,04865
        3384        3384     585,906         589     3,04244
        3396        3396      587,86         591     3,03602
        3408        3408     589,829         593     3,03577
        3420        3420     591,814         595     3,03161
        3432        3432     593,775         597     3,02698
        3444        3444     595,738         599     3,02288
        3456        3456     597,701         601     3,01961
        3468        3468     599,663         603     3,01641
        3480        3480     601,634         605     3,01369
        3492        3492     603,598         607      3,0103
        3504        3504     605,561         609     3,00994
        3516        3516     607,515         611     3,00994
        3528        3528     609,473         613     3,00754
        3540        3540     611,441         615     3,00696
        3552        3552     613,391         617      3,0035
        3564        3564     615,359         619     3,00348
        3576        3576     617,323         621     3,00059
        3588        3588     619,282         623     3,00155
        3600        3600     621,235         625     3,00311
        3612        3612     623,191         627     2,99726
        3624        3624     625,152         629     2,99733
        3636        3636       627,1         631     2,99702
        3648        3648     629,055         633     2,99702
        3660        3660     631,002         635     2,99268
        3672        3672     632,957         637     2,99537
        3684        3684     634,918         639     2,99702
        3696        3696      636,87         641     2,99702
        3708        3708     638,817         643     2,99702
        3720        3720     640,773         645     2,99702
        3732        3732     642,719         647     2,99702
        3744        3744     644,673         649     2,99702
        3756        3756     646,626         651     2,99859
        3768        3768     648,578         653     2,99731
        3780        3780     650,532         655     2,99757
        3792        3792     652,475         657     2,99702
        3804        3804     654,424         659     2,99702
        3816        3816     656,364         661     2,99702
        3828        3828     658,318         663      2,9986
        3840        3840      660,26         665     2,99996
        3852        3852     662,203         667     3,00192
        3864        3864     664,162         669     2,99708
        3876        3876     666,106         671      2,9973
        3888        3888     668,043         673     2,99884
        3900        3900     669,993         675     2,99703
        3912        3912     671,931         677     3,00334
        3924        3924     673,884         679     3,00348
        3936        3936     675,831         681     3,00348
        3948        3948     677,782         683     3,00348
        3960        3960      679,73         685     3,00348
        3972        3972     681,667         687     3,00815
        3984        3984     683,616         689     3,00353
        3996        3996      685,56         691     3,00348
        4008        4008     687,503         693     3,00682
        4020        4020     689,455         695     3,00805
        4032        4032     691,398         697     3,00532
        4044        4044     693,335         699     3,00969
        4056        4056      695,28         701     3,00994
        4068        4068     697,215         703     3,00994
        4080        4080     699,162         705     3,00994
        4092        4092     701,099         707     3,00994
        4104        4104     703,044         709     3,00994
        4116        4116     704,984         711      3,0142
        4128        4128     706,921         713     3,01031
        4140        4140     708,858         715     3,01468
        4152        4152     710,791         717     3,01638
        4164        4164     712,738         719      3,0164
        4176        4176     714,673         721      3,0136
        4188        4188     716,609         723     3,01637
        4200        4200     718,546         725      3,0164
        4212        4212     720,488         727      3,0164
        4224        4224     722,413         729      3,0164
        4236        4236     724,352         731      3,0164
        4248        4248     726,291         733     3,01693
        4260        4260     728,229         735     3,01869
        4272        4272     730,159         737     3,02245
        4284        4284     732,094         739     3,02285
        4296        4296     734,021         741     3,02127
        4308        4308     735,963         743     3,02285
        4320        4320     737,889         745     3,02285
        4332        4332     739,813         747     3,02285
        4344        4344     741,748         749     3,02417
        4356        4356     743,673         751     3,02628
        4368        4368     745,599         753     3,02744
        4380        4380     747,528         755      3,0293
        4392        4392      749,46         757     3,02931
        4404        4404     751,383         759     3,02931
        4416        4416     753,308         761     3,02931
        4428        4428     755,233         763     3,03114
        4440        4440     757,163         765     3,02933
        4452        4452     759,083         767       3,032
        4464        4464     761,011         769     3,03366
        4476        4476     762,945         771     3,03198
        4488        4488     764,862         773     3,03461
        4500        4500     766,782         775     3,03577
        4512        4512     768,715         777     3,03577
        4524        4524     770,635         779     3,03577
        4536        4536     772,552         781     3,03577
        4548        4548     774,471         783     3,03577
        4560        4560     776,397         785     3,03577
        4572        4572      778,32         787     3,03577
        4584        4584     780,237         789     3,03654
        4596        4596     782,155         791     3,04055
        4608        4608     784,068         793     3,03589
        4620        4620     785,996         795     3,03874
        4632        4632     787,912         797     3,04081
        4644        4644     789,836         799     3,04223
        4656        4656     791,755         801     3,04223
        4668        4668      793,67         803     3,03779
        4680        4680     795,595         805     3,04212
        4692        4692     797,517         807     3,04223
        4704        4704     799,444         809     3,04223
        4716        4716     801,356         811     3,04295
        4728        4728     803,284         813     3,04234
        4740        4740     805,203         815     3,04446
        4752        4752     807,119         817     3,04242
        4764        4764     809,038         819      3,0426
        4776        4776     810,956         821     3,04384
        4788        4788     812,867         823     3,04511
        4800        4800     814,782         825     3,04513
        4812        4812      816,69         827      3,0478
        4824        4824     818,606         829     3,04869
        4836        4836     820,517         831     3,04701
        4848        4848     822,417         833     3,04868
        4860        4860     824,326         835     3,04869
        4872        4872     826,232         837     3,04869
        4884        4884     828,143         839     3,04464
        4896        4896     830,048         841     3,04867
        4908        4908     831,953         843     3,04869
        4920        4920     833,868         845     3,05047
        4932        4932     835,769         847      3,0487
        4944        4944      837,67         849     3,05316
        4956        4956     839,581         851     3,05215
        4968        4968     841,486         853     3,05514
        4980        4980     843,389         855     3,05515
        4992        4992     845,301         857     3,05515
        5004        5004     847,199         859     3,05678
        5016        5016     849,107         861     3,05594
        5028        5028     851,001         863     3,05577
        5040        5040     852,899         865     3,05932
        5052        5052     854,812         867     3,06161
        5064        5064     856,718         869     3,05738
        5076        5076     858,614         871     3,05672
        5088        5088     860,524         873     3,06136
        5100        5100     862,421         875     3,06161
        5112        5112     864,323         877     3,06161
        5124        5124     866,218         879     3,06161
        5136        5136     868,119         881     3,06793
        5148        5148     870,006         883     3,06714
        5160        5160     871,891         885     3,06807
        5172        5172     873,771         887     3,06807
        5184        5184     875,664         889     3,06807
        5196        5196     877,559         891     3,06807
        5208        5208     879,448         893     3,06807
        5220        5220     881,346         895     3,06852
        5232        5232     883,237         897     3,06807
        5244        5244     885,117         899     3,06878
Results:
Texts:
  !PHBHp0607
  PHBHp0607, 15,4821 mg

Sample:
  PHBHp0607, 15,4821 mg
Sample Remarks:

Method:
  25-900_10°C/min_air50ml/min_luca