File: Latex/Final_thesis_document/Raw_Data/TGA/PHBH_Polvere
Curve Name:
  !PHBH polvere
Curve Values:
       Index           t          Ts          Tr       Value
                     [s]        [°C]        [°C]         [%]
           0           0     33,6798          25         100
          12          12     35,5759          27     101,163
          24          24     37,1671          29     101,372
          36          36     38,6842          31     101,411
          48          48     40,2031          33     101,443
          60          60     41,7487          35     101,477
          72          72      43,326          37     101,507
          84          84     44,9326          39     101,539
          96          96     46,5569          41     101,575
         108         108     48,1935          43     101,619
         120         120      49,857          45      101,65
         132         132     51,5448          47     101,679
         144         144     53,2318          49     101,707
         156         156     54,9369          51     101,733
         168         168     56,6443          53      101,76
         180         180     58,3643          55     101,792
         192         192     60,1011          57     101,817
         204         204     61,8489          59     101,846
         216         216      63,608          61     101,871
         228         228     65,3672          63     101,899
         240         240     67,1445          65     101,924
         252         252     68,9289          67     101,951
         264         264      70,732          69     101,976
         276         276     72,5263          71     102,004
         288         288     74,3283          73     102,031
         300         300     76,1586          75     102,051
         312         312     77,9773          77     102,076
         324         324     79,8097          79     102,103
         336         336     81,6294          81     102,126
         348         348     83,4718          83     102,153
         360         360     85,2891          85      102,18
         372         372     87,1405          87     102,198
         384         384     88,9804          89     102,224
         396         396     90,8482          91     102,246
         408         408     92,6983          93     102,268
         420         420     94,5622          95     102,294
         432         432     96,4324          97     102,317
         444         444     98,3057          99     102,337
         456         456     100,191         101     102,362
         468         468     102,059         103     102,381
         480         480     103,943         105     102,402
         492         492     105,821         107     102,429
         504         504     107,709         109     102,453
         516         516     109,592         111     102,471
         528         528     111,489         113     102,489
         540         540     113,373         115     102,511
         552         552     115,283         117     102,534
         564         564     117,178         119     102,555
         576         576     119,074         121     102,574
         588         588     120,978         123     102,597
         600         600     122,885         125     102,613
         612         612     124,777         127     102,632
         624         624     126,713         129     102,655
         636         636     128,669         131     102,671
         648         648     130,611         133      102,69
         660         660     132,561         135     102,707
         672         672     134,518         137     102,727
         684         684     136,455         139     102,748
         696         696     138,424         141     102,765
         708         708     140,387         143      102,78
         720         720     142,339         145       102,8
         732         732     144,301         147     102,815
         744         744     146,265         149     102,831
         756         756     148,225         151     102,844
         768         768     150,184         153     102,866
         780         780     152,146         155     102,879
         792         792     154,109         157      102,89
         804         804     156,077         159     102,908
         816         816     158,037         161     102,924
         828         828     160,005         163     102,943
         840         840     161,984         165     102,955
         852         852     163,966         167     102,974
         864         864     165,933         169     102,987
         876         876     167,901         171     103,004
         888         888     169,878         173     103,017
         900         900     171,861         175     103,027
         912         912     173,827         177     103,044
         924         924     175,818         179     103,056
         936         936     177,793         181      103,07
         948         948     179,784         183     103,081
         960         960     181,765         185     103,093
         972         972      183,76         187     103,104
         984         984      185,75         189     103,122
         996         996     187,727         191     103,133
        1008        1008     189,723         193     103,145
        1020        1020     191,702         195     103,154
        1032        1032     193,705         197     103,161
        1044        1044     195,688         199     103,169
        1056        1056     197,695         201     103,173
        1068        1068     199,696         203     103,183
        1080        1080     201,691         205     103,184
        1092        1092     203,671         207     103,184
        1104        1104     205,673         209     103,184
        1116        1116     207,685         211     103,183
        1128        1128     209,685         213     103,169
        1140        1140     211,694         215     103,157
        1152        1152     213,702         217     103,143
        1164        1164     215,699         219     103,121
        1176        1176     217,694         221     103,097
        1188        1188     219,724         223     103,066
        1200        1200     221,735         225     103,023
        1212        1212     223,739         227     102,981
        1224        1224     225,737         229     102,923
        1236        1236     227,755         231     102,855
        1248        1248      229,77         233      102,78
        1260        1260     231,789         235     102,692
        1272        1272     233,809         237     102,592
        1284        1284     235,828         239     102,477
        1296        1296     237,839         241     102,353
        1308        1308     239,859         243     102,207
        1320        1320     241,886         245     102,042
        1332        1332     243,921         247     101,853
        1344        1344     245,933         249     101,642
        1356        1356     247,963         251     101,401
        1368        1368     249,985         253     101,131
        1380        1380     252,008         255     100,829
        1392        1392     254,022         257     100,485
        1404        1404     256,033         259     100,068
        1416        1416     258,038         261     99,5613
        1428        1428      260,05         263     98,9154
        1440        1440     262,048         265     98,0892
        1452        1452     264,044         267     97,0263
        1464        1464     266,032         269     95,6238
        1476        1476     268,009         271     93,7186
        1488        1488     269,968         273     91,0611
        1500        1500     271,919         275     87,6434
        1512        1512     273,819         277     83,4593
        1524        1524     275,541         279     78,2746
        1536        1536     277,337         281     72,0724
        1548        1548     279,141         283     64,5471
        1560        1560     280,948         285     55,9323
        1572        1572     282,757         287     46,1476
        1584        1584     284,601         289     35,4469
        1596        1596     286,505         291      24,226
        1608        1608      288,51         293      13,371
        1620        1620       290,8         295     5,55204
        1632        1632     293,274         297      3,3049
        1644        1644     295,593         299     3,11126
        1656        1656     297,836         301     3,06769
        1668        1668     300,022         303     3,04185
        1680        1680     302,153         305     3,02549
        1692        1692     304,269         307     3,02209
        1704        1704     306,357         309     3,01115
        1716        1716      308,42         311     3,00054
        1728        1728     310,477         313     2,99515
        1740        1740     312,516         315     2,98535
        1752        1752      314,55         317     2,97655
        1764        1764     316,594         319     2,97073
        1776        1776     318,623         321     2,96506
        1788        1788     320,655         323     2,95461
        1800        1800      322,68         325     2,94693
        1812        1812     324,694         327     2,94195
        1824        1824     326,726         329     2,92965
        1836        1836     328,743         331     2,92578
        1848        1848     330,761         333     2,91565
        1860        1860     332,764         335     2,90808
        1872        1872     334,789         337      2,9008
        1884        1884     336,807         339      2,8967
        1896        1896     338,807         341     2,88523
        1908        1908     340,813         343     2,87478
        1920        1920      342,82         345      2,8671
        1932        1932     344,829         347     2,86243
        1944        1944     346,832         349     2,85586
        1956        1956     348,846         351     2,85102
        1968        1968     350,845         353     2,84276
        1980        1980     352,851         355     2,83963
        1992        1992     354,849         357     2,83695
        2004        2004     356,854         359       2,828
        2016        2016     358,855         361     2,82314
        2028        2028     360,871         363     2,81687
        2040        2040     362,871         365     2,81157
        2052        2052     364,874         367     2,80766
        2064        2064      366,87         369     2,80541
        2076        2076      368,88         371     2,80033
        2088        2088     370,881         373     2,79346
        2100        2100     372,872         375     2,78656
        2112        2112     374,889         377     2,78266
        2124        2124     376,894         379     2,77184
        2136        2136     378,906         381     2,77119
        2148        2148     380,905         383     2,76414
        2160        2160     382,899         385     2,75583
        2172        2172     384,911         387      2,7501
        2184        2184     386,914         389     2,74572
        2196        2196     388,913         391     2,73697
        2208        2208     390,908         393     2,73025
        2220        2220     392,906         395      2,7256
        2232        2232     394,905         397     2,71675
        2244        2244     396,903         399     2,71418
        2256        2256     398,906         401     2,70276
        2268        2268      400,91         403     2,69298
        2280        2280     402,902         405     2,68719
        2292        2292     404,903         407     2,68174
        2304        2304      406,89         409     2,67261
        2316        2316     408,895         411     2,65968
        2328        2328     410,882         413     2,65793
        2340        2340     412,879         415      2,6501
        2352        2352     414,865         417     2,64582
        2364        2364     416,866         419     2,64286
        2376        2376     418,854         421      2,6318
        2388        2388     420,844         423      2,6291
        2400        2400     422,834         425     2,62297
        2412        2412     424,826         427     2,61414
        2424        2424     426,813         429     2,60957
        2436        2436     428,807         431     2,60139
        2448        2448     430,795         433     2,59824
        2460        2460      432,78         435     2,59995
        2472        2472     434,769         437     2,59816
        2484        2484     436,761         439     2,59865
        2496        2496     438,748         441     2,59632
        2508        2508     440,728         443     2,59632
        2520        2520     442,718         445     2,58978
        2532        2532     444,707         447      2,5972
        2544        2544     446,681         449     2,58902
        2556        2556     448,671         451     2,58999
        2568        2568     450,649         453     2,59322
        2580        2580     452,644         455       2,597
        2592        2592     454,616         457     2,59936
        2604        2604       456,6         459     2,60012
        2616        2616     458,596         461     2,60139
        2628        2628     460,574         463     2,61135
        2640        2640     462,556         465     2,61153
        2652        2652     464,543         467     2,61185
        2664        2664     466,526         469     2,61187
        2676        2676     468,496         471      2,6128
        2688        2688     470,476         473     2,62122
        2700        2700     472,457         475     2,62427
        2712        2712     474,435         477     2,63049
        2724        2724     476,423         479     2,63432
        2736        2736     478,404         481     2,63434
        2748        2748     480,372         483     2,64445
        2760        2760     482,356         485     2,64574
        2772        2772     484,332         487      2,6468
        2784        2784     486,313         489     2,65684
        2796        2796       488,3         491     2,65715
        2808        2808     490,268         493     2,66238
        2820        2820     492,243         495     2,66972
        2832        2832     494,227         497     2,67668
        2844        2844     496,198         499     2,67414
        2856        2856     498,176         501     2,67489
        2868        2868     500,151         503     2,68176
        2880        2880     502,121         505     2,69114
        2892        2892     504,088         507     2,69605
        2904        2904     506,065         509     2,70121
        2916        2916     508,033         511     2,70276
        2928        2928     510,009         513     2,71052
        2940        2940     511,978         515     2,71414
        2952        2952     513,949         517     2,72096
        2964        2964     515,919         519     2,72504
        2976        2976     517,887         521     2,72557
        2988        2988     519,856         523     2,73635
        3000        3000     521,819         525     2,73697
        3012        3012     523,785         527     2,74307
        3024        3024     525,756         529     2,74801
        3036        3036     527,724         531     2,74838
        3048        3048     529,686         533     2,75916
        3060        3060     531,665         535     2,76113
        3072        3072     533,617         537     2,76222
        3084        3084     535,585         539     2,77057
        3096        3096     537,554         541     2,77372
        3108        3108     539,508         543     2,78213
        3120        3120     541,469         545     2,78259
        3132        3132     543,434         547     2,79371
        3144        3144     545,395         549     2,79399
        3156        3156     547,354         551      2,8016
        3168        3168     549,308         553     2,80539
        3180        3180     551,275         555     2,81106
        3192        3192     553,233         557     2,81679
        3204        3204     555,196         559      2,8168
        3216        3216     557,151         561     2,82821
        3228        3228     559,112         563     2,82821
        3240        3240     561,063         565     2,83774
        3252        3252     563,021         567     2,83954
        3264        3264     564,976         569     2,83993
        3276        3276     566,935         571     2,85102
        3288        3288     568,885         573     2,85102
        3300        3300     570,836         575     2,85654
        3312        3312     572,793         577     2,86222
        3324        3324     574,736         579     2,86274
        3336        3336     576,699         581     2,87256
        3348        3348     578,652         583     2,87377
        3360        3360     580,603         585     2,87906
        3372        3372     582,551         587     2,88363
        3384        3384     584,499         589     2,88522
        3396        3396     586,458         591     2,89283
        3408        3408     588,395         593     2,89499
        3420        3420     590,345         595     2,89662
        3432        3432     592,291         597     2,90469
        3444        3444     594,244         599     2,90802
        3456        3456     596,179         601     2,90804
        3468        3468     598,116         603     2,91723
        3480        3480     600,055         605     2,91938
        3492        3492     601,994         607     2,91944
        3504        3504     603,955         609     2,91944
        3516        3516     605,896         611     2,92578
        3528        3528     607,849         613     2,93083
        3540        3540     609,809         615     2,93084
        3552        3552     611,753         617     2,93084
        3564        3564     613,711         619     2,93351
        3576        3576     615,663         621     2,94225
        3588        3588     617,606         623     2,94225
        3600        3600     619,553         625     2,94256
        3612        3612     621,488         627     2,94231
        3624        3624     623,444         629     2,94563
        3636        3636     625,389         631     2,95492
        3648        3648     627,339         633     2,95371
        3660        3660     629,281         635     2,95365
        3672        3672     631,221         637     2,95365
        3684        3684     633,162         639     2,95365
        3696        3696     635,107         641     2,94858
        3708        3708     637,056         643     2,95364
        3720        3720     638,997         645     2,95365
        3732        3732     640,936         647     2,95365
        3744        3744      642,88         649     2,95365
        3756        3756     644,826         651     2,95365
        3768        3768     646,759         653     2,95365
        3780        3780     648,704         655     2,95231
        3792        3792      650,65         657     2,95117
        3804        3804       652,6         659     2,94286
        3816        3816      654,54         661     2,94225
        3828        3828      656,48         663     2,94225
        3840        3840     658,429         665     2,94225
        3852        3852     660,367         667     2,93834
        3864        3864     662,314         669     2,93143
        3876        3876     664,262         671     2,93084
        3888        3888     666,199         673     2,92563
        3900        3900     668,153         675     2,92448
        3912        3912     670,099         677     2,91946
        3924        3924     672,046         679     2,91529
        3936        3936     673,986         681     2,90804
        3948        3948     675,932         683     2,89825
        3960        3960      677,88         685     2,89408
        3972        3972      679,82         687     2,88532
        3984        3984      681,77         689     2,88523
        3996        3996     683,721         691     2,87382
        4008        4008     685,665         693      2,8671
        4020        4020     687,611         695     2,85572
        4032        4032     689,568         697     2,84976
        4044        4044      691,52         699     2,83944
        4056        4056     693,472         701     2,82821
        4068        4068     695,415         703      2,8181
        4080        4080     697,363         705     2,80569
        4092        4092     699,323         707     2,79586
        4104        4104     701,266         709      2,7843
        4116        4116     703,226         711     2,76865
        4128        4128     705,173         713     2,75605
        4140        4140      707,13         715      2,7417
        4152        4152      709,09         717     2,72893
        4164        4164     711,044         719     2,71583
        4176        4176     712,987         721     2,70023
        4188        4188     714,946         723     2,68616
        4200        4200     716,903         725      2,6683
        4212        4212     718,867         727        2,65
        4224        4224     720,812         729     2,62687
        4236        4236     722,777         731      2,6128
        4248        4248     724,733         733     2,59854
        4260        4260     726,701         735     2,57459
        4272        4272     728,651         737     2,55661
        4284        4284     730,611         739     2,53481
        4296        4296     732,568         741     2,51016
        4308        4308     734,532         743     2,48544
        4320        4320     736,486         745     2,46294
        4332        4332     738,455         747     2,43881
        4344        4344     740,421         749     2,41444
        4356        4356      742,38         751     2,38598
        4368        4368     744,355         753     2,35817
        4380        4380     746,324         755     2,32743
        4392        4392     748,286         757     2,30066
        4404        4404     750,268         759     2,27307
        4416        4416     752,234         761     2,24407
        4428        4428       754,2         763     2,20985
        4440        4440     756,172         765     2,17667
        4452        4452     758,159         767     2,14422
        4464        4464     760,137         769     2,11015
        4476        4476     762,127         771     2,07427
        4488        4488     764,102         773     2,03555
        4500        4500     766,088         775     2,00278
        4512        4512     768,074         777     1,96122
        4524        4524     770,071         779     1,92616
        4536        4536     772,056         781     1,88547
        4548        4548     774,049         783     1,84538
        4560        4560      776,04         785     1,80396
        4572        4572     778,038         787     1,75685
        4584        4584      780,03         789     1,71242
        4596        4596     782,018         791     1,66753
        4608        4608     784,019         793      1,6236
        4620        4620     786,016         795     1,57604
        4632        4632     788,014         797     1,52987
        4644        4644     790,004         799     1,48242
        4656        4656     791,997         801     1,43058
        4668        4668     793,983         803     1,37785
        4680        4680     795,969         805     1,32834
        4692        4692     797,949         807      1,2775
        4704        4704     799,924         809     1,22289
        4716        4716     801,898         811     1,16195
        4728        4728     803,867         813     1,11256
        4740        4740     805,827         815     1,05374
        4752        4752     807,789         817    0,996751
        4764        4764     809,736         819    0,937669
        4776        4776     811,685         821    0,878113
        4788        4788     813,633         823    0,819838
        4800        4800     815,572         825    0,760593
        4812        4812     817,499         827    0,700758
        4824        4824     819,431         829    0,635936
        4836        4836     821,355         831    0,576539
        4848        4848     823,285         833    0,511164
        4860        4860     825,205         835    0,447319
        4872        4872     827,126         837    0,385093
        4884        4884     829,045         839    0,320494
        4896        4896      830,96         841    0,255958
        4908        4908     832,869         843    0,189604
        4920        4920     834,781         845    0,124699
        4932        4932     836,696         847   0,0614097
        4944        4944     838,609         849 -0,00271678
        4956        4956      840,51         851  -0,0722257
        4968        4968     842,415         853   -0,137646
        4980        4980      844,32         855   -0,203314
        4992        4992     846,218         857   -0,268438
        5004        5004     848,129         859   -0,334254
        5016        5016     850,034         861   -0,399142
        5028        5028     851,932         863    -0,46394
        5040        5040     853,841         865   -0,527313
        5052        5052     855,737         867   -0,595514
        5064        5064     857,641         869   -0,658723
        5076        5076     859,539         871    -0,72099
        5088        5088     861,441         873   -0,785332
        5100        5100     863,331         875    -0,85009
        5112        5112     865,227         877     -0,9149
        5124        5124     867,115         879   -0,974106
        5136        5136     869,007         881    -1,03397
        5148        5148     870,888         883    -1,09604
        5160        5160     872,779         885    -1,15833
        5172        5172      874,66         887    -1,21656
        5184        5184     876,546         889    -1,27329
        5196        5196     878,416         891    -1,33174
        5208        5208     880,299         893    -1,38928
        5220        5220     882,178         895    -1,44685
        5232        5232     884,058         897    -1,50534
        5244        5244     885,934         899    -1,55983
Results:
Texts:
  !PHBH polvere
  PHBH polvere, 8,7688 mg

Sample:
  PHBH polvere, 8,7688 mg
Sample Remarks:

Method:
  25-900_10°C/min_air50ml/min_luca