File: Latex/Final_thesis_document/Raw_Data/TGA/PHBH p09.txt
Curve Name:
  !PHBH_powder
Curve Values:
       Index           t          Ts          Tr       Value
                     [s]        [°C]        [°C]         [%]
           0           0     32,2597          25         100
          12          12      34,188          27     100,254
          24          24     35,7736          29     100,295
          36          36     37,2857          31     100,308
          48          48     38,8076          33     100,317
          60          60      40,366          35     100,324
          72          72     41,9357          37     100,328
          84          84     43,5445          39     100,333
          96          96      45,145          41     100,339
         108         108     46,8078          43     100,341
         120         120     48,4539          45     100,345
         132         132     50,1267          47     100,349
         144         144     51,8081          49     100,354
         156         156     53,4972          51     100,358
         168         168     55,1929          53     100,363
         180         180     56,9163          55     100,368
         192         192     58,6403          57     100,373
         204         204     60,3808          59     100,377
         216         216     62,1165          61     100,383
         228         228     63,8811          63     100,388
         240         240     65,6253          65     100,392
         252         252      67,401          67     100,397
         264         264     69,1605          69     100,402
         276         276     70,9385          71     100,406
         288         288       72,74          73     100,411
         300         300      74,532          75     100,416
         312         312      76,317          77      100,42
         324         324     78,1168          79     100,425
         336         336     79,9077          81     100,429
         348         348     81,7047          83     100,433
         360         360     83,5104          85     100,438
         372         372     85,3342          87     100,442
         384         384     87,1462          89     100,447
         396         396     88,9556          91     100,451
         408         408     90,7798          93     100,456
         420         420     92,6097          95     100,461
         432         432     94,4198          97     100,465
         444         444     96,2638          99     100,468
         456         456     98,0979         101     100,474
         468         468     99,9499         103     100,477
         480         480     101,805         105      100,48
         492         492     103,656         107     100,484
         504         504     105,514         109     100,488
         516         516     107,369         111     100,492
         528         528     109,246         113     100,494
         540         540     111,101         115       100,5
         552         552     112,963         117     100,503
         564         564     114,822         119     100,507
         576         576     116,672         121     100,509
         588         588      118,54         123     100,513
         600         600      120,39         125     100,518
         612         612     122,241         127     100,522
         624         624     124,091         129     100,525
         636         636     125,941         131     100,527
         648         648      127,83         133      100,53
         660         660     129,761         135     100,533
         672         672     131,731         137     100,535
         684         684     133,695         139     100,538
         696         696     135,696         141     100,541
         708         708     137,692         143     100,543
         720         720     139,684         145     100,546
         732         732     141,673         147     100,548
         744         744     143,657         149     100,551
         756         756     145,628         151     100,554
         768         768     147,597         153     100,557
         780         780      149,57         155     100,559
         792         792     151,531         157     100,562
         804         804     153,491         159     100,564
         816         816     155,455         161     100,567
         828         828     157,425         163     100,569
         840         840      159,39         165     100,572
         852         852      161,37         167     100,574
         864         864     163,328         169     100,576
         876         876     165,295         171      100,58
         888         888     167,255         173     100,582
         900         900     169,232         175     100,585
         912         912     171,201         177     100,587
         924         924     173,175         179     100,588
         936         936     175,135         181     100,591
         948         948      177,11         183     100,592
         960         960     179,077         185     100,595
         972         972     181,054         187     100,597
         984         984     183,029         189     100,598
         996         996     184,998         191       100,6
        1008        1008     186,989         193     100,603
        1020        1020     188,971         195     100,605
        1032        1032     190,968         197     100,605
        1044        1044     192,933         199     100,607
        1056        1056     194,924         201     100,608
        1068        1068     196,905         203     100,609
        1080        1080     198,895         205     100,611
        1092        1092     200,883         207     100,611
        1104        1104     202,867         209     100,611
        1116        1116     204,848         211     100,611
        1128        1128     206,848         213     100,609
        1140        1140     208,832         215     100,609
        1152        1152      210,84         217     100,607
        1164        1164      212,83         219     100,604
        1176        1176      214,82         221     100,601
        1188        1188      216,81         223     100,597
        1200        1200     218,809         225     100,592
        1212        1212       220,8         227     100,584
        1224        1224     222,793         229     100,577
        1236        1236     224,791         231     100,567
        1248        1248     226,779         233     100,555
        1260        1260     228,787         235     100,542
        1272        1272     230,783         237     100,527
        1284        1284     232,792         239      100,51
        1296        1296     234,798         241     100,494
        1308        1308     236,809         243     100,476
        1320        1320     238,812         245     100,461
        1332        1332     240,823         247     100,445
        1344        1344     242,842         249     100,427
        1356        1356     244,854         251     100,407
        1368        1368     246,885         253     100,383
        1380        1380     248,906         255     100,355
        1392        1392     250,919         257     100,323
        1404        1404     252,936         259     100,282
        1416        1416     254,945         261     100,236
        1428        1428     256,942         263     100,174
        1440        1440     258,938         265       100,1
        1452        1452     260,937         267     100,008
        1464        1464     262,913         269     99,8854
        1476        1476     264,903         271     99,7251
        1488        1488     266,885         273     99,5112
        1500        1500     268,862         275     99,2213
        1512        1512     270,831         277     98,8066
        1524        1524     272,786         279     98,1807
        1536        1536     274,748         281     97,0892
        1548        1548     276,449         283     95,2151
        1560        1560     278,008         285     92,7998
        1572        1572     279,442         287     89,7391
        1584        1584     280,824         289     85,8667
        1596        1596      282,19         291     81,2001
        1608        1608     283,546         293     75,8269
        1620        1620     284,917         295     69,6818
        1632        1632     286,344         297     62,8495
        1644        1644     287,815         299     55,3808
        1656        1656     289,376         301     47,4504
        1668        1668     291,065         303     39,2167
        1680        1680     292,894         305     30,8707
        1692        1692     294,893         307     22,6923
        1704        1704     297,113         309      15,012
        1716        1716     299,703         311     8,36423
        1728        1728     302,923         313     3,99408
        1740        1740     306,422         315     2,91692
        1752        1752     309,405         317     2,78241
        1764        1764     312,119         319     2,73214
        1776        1776     314,651         321     2,69949
        1788        1788     317,051         323      2,6745
        1800        1800     319,363         325     2,65308
        1812        1812     321,602         327     2,63467
        1824        1824     323,781         329     2,61685
        1836        1836     325,925         331     2,60031
        1848        1848     328,042         333      2,5838
        1860        1860     330,126         335     2,56783
        1872        1872     332,209         337     2,55147
        1884        1884     334,268         339     2,53555
        1896        1896     336,323         341     2,51814
        1908        1908     338,368         343     2,50022
        1920        1920     340,403         345     2,48207
        1932        1932     342,425         347     2,46321
        1944        1944     344,443         349     2,44294
        1956        1956     346,468         351     2,42219
        1968        1968     348,489         353     2,40072
        1980        1980     350,508         355     2,37907
        1992        1992     352,527         357     2,35417
        2004        2004     354,546         359     2,32963
        2016        2016     356,568         361     2,30546
        2028        2028     358,578         363     2,27918
        2040        2040     360,595         365     2,25293
        2052        2052     362,608         367     2,22707
        2064        2064     364,636         369     2,20128
        2076        2076     366,634         371     2,17675
        2088        2088     368,638         373     2,15385
        2100        2100      370,65         375      2,1318
        2112        2112      372,65         377     2,11286
        2124        2124     374,655         379     2,09521
        2136        2136     376,655         381     2,07774
        2148        2148     378,646         383      2,0633
        2160        2160     380,638         385     2,04994
        2172        2172     382,628         387     2,03734
        2184        2184     384,606         389     2,02672
        2196        2196      386,61         391     2,01637
        2208        2208      388,61         393     2,00681
        2220        2220     390,609         395     1,99723
        2232        2232     392,609         397     1,98808
        2244        2244     394,603         399     1,97891
        2256        2256     396,603         401     1,97029
        2268        2268     398,617         403      1,9615
        2280        2280     400,611         405     1,95275
        2292        2292      402,62         407     1,94413
        2304        2304     404,616         409     1,93372
        2316        2316     406,632         411     1,92484
        2328        2328     408,639         413     1,91407
        2340        2340     410,646         415     1,90395
        2352        2352      412,66         417     1,89345
        2364        2364     414,673         419     1,88179
        2376        2376     416,683         421     1,87063
        2388        2388     418,699         423      1,8577
        2400        2400     420,715         425     1,84496
        2412        2412     422,729         427     1,83159
        2424        2424     424,735         429     1,81759
        2436        2436     426,757         431     1,80218
        2448        2448      428,77         433     1,78649
        2460        2460     430,779         435     1,76992
        2472        2472     432,807         437     1,75137
        2484        2484     434,824         439      1,7335
        2496        2496     436,844         441     1,71469
        2508        2508     438,844         443       1,696
        2520        2520     440,855         445     1,67647
        2532        2532     442,843         447     1,65917
        2544        2544     444,825         449      1,6421
        2556        2556      446,81         451     1,62596
        2568        2568     448,782         453     1,61004
        2580        2580     450,761         455     1,59762
        2592        2592     452,729         457     1,58626
        2604        2604     454,691         459     1,57574
        2616        2616     456,657         461       1,568
        2628        2628     458,609         463     1,56124
        2640        2640     460,569         465     1,55627
        2652        2652     462,527         467     1,55141
        2664        2664     464,487         469     1,54995
        2676        2676     466,445         471     1,54813
        2688        2688     468,425         473     1,54612
        2700        2700     470,412         475     1,54443
        2712        2712     472,379         477     1,54348
        2724        2724     474,363         479     1,54348
        2736        2736     476,339         481     1,54253
        2748        2748     478,313         483     1,54086
        2760        2760     480,297         485     1,54128
        2772        2772     482,278         487     1,54087
        2784        2784     484,254         489     1,54086
        2796        2796     486,255         491     1,54086
        2808        2808     488,225         493     1,54086
        2820        2820     490,206         495     1,54086
        2832        2832     492,185         497     1,54086
        2844        2844     494,164         499     1,54086
        2856        2856     496,136         501     1,54086
        2868        2868     498,117         503     1,54086
        2880        2880       500,1         505     1,54158
        2892        2892      502,08         507     1,54203
        2904        2904      504,06         509     1,54188
        2916        2916      506,03         511     1,54286
        2928        2928      508,01         513     1,54261
        2940        2940     509,984         515      1,5432
        2952        2952     511,965         517     1,54348
        2964        2964     513,934         519     1,54406
        2976        2976     515,914         521     1,54436
        2988        2988     517,892         523     1,54556
        3000        3000      519,86         525     1,54522
        3012        3012     521,838         527     1,54602
        3024        3024     523,809         529     1,54633
        3036        3036     525,778         531     1,54639
        3048        3048     527,745         533     1,54697
        3060        3060     529,727         535     1,54846
        3072        3072     531,695         537     1,54871
        3084        3084     533,661         539     1,54871
        3096        3096     535,635         541     1,54871
        3108        3108     537,607         543       1,549
        3120        3120     539,573         545     1,54871
        3132        3132     541,544         547     1,55123
        3144        3144     543,506         549     1,55133
        3156        3156     545,478         551     1,55133
        3168        3168      547,45         553     1,55266
        3180        3180     549,414         555     1,55133
        3192        3192     551,382         557     1,55392
        3204        3204     553,344         559      1,5538
        3216        3216     555,305         561     1,55365
        3228        3228     557,269         563     1,55402
        3240        3240      559,23         565     1,55539
        3252        3252     561,187         567     1,55656
        3264        3264     563,153         569     1,55622
        3276        3276     565,116         571     1,55656
        3288        3288     567,076         573      1,5583
        3300        3300     569,026         575     1,55665
        3312        3312     570,979         577     1,55857
        3324        3324     572,942         579     1,55918
        3336        3336     574,904         581     1,55918
        3348        3348     576,865         583     1,55918
        3360        3360      578,81         585     1,55918
        3372        3372     580,771         587     1,55918
        3384        3384     582,725         589     1,56081
        3396        3396     584,678         591     1,55976
        3408        3408     586,627         593     1,56177
        3420        3420      588,58         595     1,56179
        3432        3432     590,529         597     1,56237
        3444        3444     592,487         599     1,56187
        3456        3456     594,437         601     1,56216
        3468        3468     596,396         603     1,56383
        3480        3480     598,336         605     1,56462
        3492        3492      600,29         607     1,56441
        3504        3504     602,234         609     1,56441
        3516        3516     604,182         611     1,56441
        3528        3528     606,131         613     1,56441
        3540        3540     608,065         615     1,56644
        3552        3552      610,02         617     1,56688
        3564        3564     611,958         619     1,56702
        3576        3576     613,906         621     1,56702
        3588        3588      615,85         623      1,5679
        3600        3600     617,794         625     1,56736
        3612        3612     619,741         627     1,56906
        3624        3624      621,69         629     1,56964
        3636        3636     623,631         631     1,56964
        3648        3648     625,575         633     1,56935
        3660        3660     627,515         635     1,56964
        3672        3672     629,445         637     1,56964
        3684        3684     631,388         639     1,56964
        3696        3696     633,331         641     1,57051
        3708        3708     635,271         643     1,57153
        3720        3720     637,213         645     1,57226
        3732        3732     639,139         647     1,57226
        3744        3744     641,072         649     1,57226
        3756        3756      643,01         651     1,57226
        3768        3768     644,942         653     1,57233
        3780        3780     646,882         655     1,57255
        3792        3792     648,816         657     1,57342
        3804        3804      650,75         659     1,57459
        3816        3816     652,682         661     1,57458
        3828        3828     654,611         663     1,57487
        3840        3840     656,551         665     1,57487
        3852        3852     658,475         667     1,57487
        3864        3864     660,406         669     1,57487
        3876        3876     662,333         671     1,57494
        3888        3888     664,267         673     1,57518
        3900        3900     666,201         675     1,57574
        3912        3912     668,126         677     1,57642
        3924        3924     670,054         679     1,57667
        3936        3936     671,978         681     1,57749
        3948        3948      673,91         683     1,57749
        3960        3960      675,85         685     1,57749
        3972        3972     677,767         687     1,57749
        3984        3984     679,701         689     1,57749
        3996        3996     681,621         691     1,57823
        4008        4008      683,56         693     1,57749
        4020        4020     685,477         695     1,58001
        4032        4032     687,398         697     1,57868
        4044        4044     689,323         699     1,57981
        4056        4056     691,243         701     1,57954
        4068        4068     693,168         703     1,58006
        4080        4080     695,088         705     1,58127
        4092        4092     697,009         707     1,58011
        4104        4104     698,939         709     1,58011
        4116        4116     700,863         711     1,58011
        4128        4128     702,786         713     1,58011
        4140        4140     704,704         715     1,58018
        4152        4152     706,632         717      1,5804
        4164        4164     708,545         719     1,58249
        4176        4176     710,462         721     1,58146
        4188        4188     712,374         723     1,58272
        4200        4200     714,301         725     1,58114
        4212        4212     716,228         727     1,58265
        4224        4224     718,141         729     1,58272
        4236        4236      720,06         731     1,58272
        4248        4248     721,977         733     1,58272
        4260        4260     723,892         735     1,58243
        4272        4272     725,802         737     1,58272
        4284        4284     727,723         739     1,58272
        4296        4296     729,634         741     1,58272
        4308        4308     731,547         743     1,58524
        4320        4320      733,46         745     1,58507
        4332        4332     735,371         747     1,58359
        4344        4344     737,295         749     1,58395
        4356        4356     739,209         751     1,58533
        4368        4368     741,119         753     1,58447
        4380        4380     743,031         755      1,5841
        4392        4392     744,933         757     1,58521
        4404        4404     746,851         759     1,58505
        4416        4416     748,759         761     1,58534
        4428        4428     750,664         763     1,58534
        4440        4440     752,579         765     1,58534
        4452        4452     754,482         767     1,58534
        4464        4464     756,385         769     1,58534
        4476        4476     758,293         771     1,58534
        4488        4488     760,198         773     1,58534
        4500        4500     762,102         775     1,58567
        4512        4512     764,006         777     1,58534
        4524        4524     765,911         779     1,58534
        4536        4536     767,823         781     1,58534
        4548        4548     769,717         783     1,58563
        4560        4560     771,619         785     1,58639
        4572        4572     773,516         787     1,58686
        4584        4584     775,417         789     1,58592
        4596        4596     777,311         791     1,58648
        4608        4608     779,217         793     1,58648
        4620        4620     781,117         795     1,58534
        4632        4632     783,022         797     1,58772
        4644        4644     784,904         799     1,58542
        4656        4656      786,81         801     1,58766
        4668        4668     788,704         803     1,58603
        4680        4680     790,603         805     1,58604
        4692        4692     792,487         807     1,58563
        4704        4704     794,389         809      1,5866
        4716        4716     796,271         811     1,58534
        4728        4728     798,174         813     1,58795
        4740        4740     800,067         815     1,58543
        4752        4752     801,968         817     1,58709
        4764        4764     803,852         819     1,58592
        4776        4776     805,751         821     1,58621
        4788        4788      807,64         823     1,58766
        4800        4800     809,522         825     1,58563
        4812        4812     811,417         827     1,58586
        4824        4824      813,31         829     1,58566
        4836        4836       815,2         831     1,58592
        4848        4848     817,096         833     1,58534
        4860        4860     818,988         835     1,58534
        4872        4872     820,871         837     1,58534
        4884        4884     822,764         839     1,58618
        4896        4896     824,659         841     1,58534
        4908        4908     826,544         843     1,58447
        4920        4920     828,436         845     1,58654
        4932        4932     830,325         847     1,58607
        4944        4944      832,21         849     1,58737
        4956        4956     834,103         851     1,58536
        4968        4968      835,99         853     1,58783
        4980        4980     837,872         855     1,58534
        4992        4992     839,754         857     1,58534
        5004        5004     841,642         859     1,58561
        5016        5016     843,529         861     1,58708
        5028        5028     845,408         863     1,58534
        5040        5040     847,286         865     1,58534
        5052        5052     849,173         867     1,58534
        5064        5064     851,063         869     1,58534
        5076        5076     852,946         871     1,58534
        5088        5088     854,826         873     1,58534
        5100        5100     856,707         875     1,58534
        5112        5112     858,584         877     1,58534
        5124        5124      860,47         879     1,58534
        5136        5136     862,346         881     1,58534
        5148        5148     864,222         883     1,58534
        5160        5160     866,106         885     1,58534
        5172        5172     867,969         887     1,58534
        5184        5184     869,849         889     1,58309
        5196        5196     871,738         891     1,58505
        5208        5208      873,61         893     1,58534
        5220        5220     875,488         895     1,58377
        5232        5232     877,375         897     1,58303
        5244        5244     879,248         899     1,58273
Results:
Texts:
  !PHBH_powder
  PHBH_powder, 38,2253 mg

Sample:
  PHBH_powder, 38,2253 mg
Sample Remarks:

Method:
  25-900_10°C/min_air50ml/min_luca